TITLE	rsFolder-off
DATA TYPE	ULTRAVIOLET SPECTRUM
ORIGIN	JASCO
OWNER	
DATE	20/10/23
TIME	19:38:07
SPECTROMETER/DATA SYSTEM	
LOCALE	1036
RESOLUTION	
DELTAX	-1
XUNITS	NANOMETERS
YUNITS	ABSORBANCE
FIRSTX	  650,0000
LASTX	  250,0000
NPOINTS	     401
FIRSTY	    -0,00329
MAXY	     0,33673
MINY	    -0,00354
XYDATA
650,0000	-0,0032869
649,0000	-0,00342644
648,0000	-0,00342594
647,0000	-0,00338833
646,0000	-0,00337362
645,0000	-0,00330631
644,0000	-0,00340967
643,0000	-0,00333457
642,0000	-0,00334084
641,0000	-0,0033187
640,0000	-0,00319188
639,0000	-0,00328509
638,0000	-0,00336105
637,0000	-0,00329603
636,0000	-0,00336615
635,0000	-0,00344174
634,0000	-0,00345253
633,0000	-0,00345532
632,0000	-0,00348039
631,0000	-0,00339679
630,0000	-0,00336294
629,0000	-0,00341313
628,0000	-0,00335315
627,0000	-0,00331852
626,0000	-0,00326159
625,0000	-0,00338772
624,0000	-0,00345228
623,0000	-0,00331515
622,0000	-0,00334029
621,0000	-0,00330315
620,0000	-0,0033235
619,0000	-0,00323536
618,0000	-0,00342215
617,0000	-0,00353935
616,0000	-0,00342828
615,0000	-0,00331079
614,0000	-0,00328398
613,0000	-0,00342623
612,0000	-0,00338333
611,0000	-0,00330825
610,0000	-0,00312497
609,0000	-0,00314537
608,0000	-0,00327633
607,0000	-0,00331872
606,0000	-0,00324977
605,0000	-0,00328303
604,0000	-0,00336543
603,0000	-0,00328782
602,0000	-0,00336829
601,0000	-0,00341143
600,0000	-0,00338066
599,0000	-0,00327847
598,0000	-0,00315407
597,0000	-0,00322109
596,0000	-0,00334102
595,0000	-0,00326644
594,0000	-0,00327296
593,0000	-0,0032366
592,0000	-0,00328333
591,0000	-0,00336919
590,0000	-0,00330758
589,0000	-0,00320864
588,0000	-0,00325915
587,0000	-0,00330384
586,0000	-0,00328303
585,0000	-0,00329061
584,0000	-0,00333323
583,0000	-0,00337578
582,0000	-0,00339702
581,0000	-0,00339818
580,0000	-0,00324852
579,0000	-0,00328563
578,0000	-0,00353334
577,0000	-0,00341355
576,0000	-0,00338461
575,0000	-0,00342448
574,0000	-0,00340233
573,0000	-0,00331772
572,0000	-0,00336122
571,0000	-0,00329205
570,0000	-0,00325325
569,0000	-0,00318353
568,0000	-0,00321561
567,0000	-0,00330841
566,0000	-0,00326259
565,0000	-0,0033371
564,0000	-0,00336177
563,0000	-0,00330647
562,0000	-0,00334034
561,0000	-0,00333961
560,0000	-0,0032625
559,0000	-0,00329078
558,0000	-0,00312649
557,0000	-0,00314665
556,0000	-0,0033646
555,0000	-0,00330522
554,0000	-0,00324381
553,0000	-0,0031799
552,0000	-0,00318165
551,0000	-0,00338736
550,0000	-0,00328156
549,0000	-0,00331519
548,0000	-0,00329841
547,0000	-0,00319512
546,0000	-0,00312723
545,0000	-0,00330655
544,0000	-0,00335414
543,0000	-0,0031936
542,0000	-0,0031753
541,0000	-0,00321759
540,0000	-0,00323024
539,0000	-0,00314868
538,0000	-0,00309765
537,0000	-0,00321705
536,0000	-0,0033089
535,0000	-0,00328528
534,0000	-0,00304029
533,0000	-0,00304256
532,0000	-0,00310078
531,0000	-0,0031486
530,0000	-0,00308622
529,0000	-0,00313152
528,0000	-0,00305844
527,0000	-0,00303809
526,0000	-0,00303791
525,0000	-0,00306086
524,0000	-0,0031268
523,0000	-0,00307609
522,0000	-0,00297644
521,0000	-0,00287095
520,0000	-0,00311321
519,0000	-0,00291723
518,0000	-0,00294773
517,0000	-0,00282539
516,0000	-0,00265514
515,0000	-0,00255252
514,0000	-0,00254722
513,0000	-0,00231417
512,0000	-0,00214537
511,0000	-0,00194159
510,0000	-0,00166391
509,0000	-0,00152204
508,0000	-0,00109639
507,0000	-0,000666555
506,0000	-0,000112162
505,0000	0,000437841
504,0000	0,00124969
503,0000	0,00190102
502,0000	0,0026496
501,0000	0,0036948
500,0000	0,00464527
499,0000	0,00574998
498,0000	0,0067525
497,0000	0,00811773
496,0000	0,00942985
495,0000	0,0107634
494,0000	0,0121151
493,0000	0,0134422
492,0000	0,0148166
491,0000	0,0161863
490,0000	0,0177422
489,0000	0,019174
488,0000	0,0204161
487,0000	0,021422
486,0000	0,0224848
485,0000	0,0234872
484,0000	0,0245567
483,0000	0,0254383
482,0000	0,0262553
481,0000	0,0268789
480,0000	0,0273436
479,0000	0,02785
478,0000	0,0283195
477,0000	0,0287608
476,0000	0,0290661
475,0000	0,0293045
474,0000	0,0295996
473,0000	0,030176
472,0000	0,0307529
471,0000	0,0312698
470,0000	0,0320429
469,0000	0,0329923
468,0000	0,0339807
467,0000	0,0351038
466,0000	0,036571
465,0000	0,0384502
464,0000	0,0404918
463,0000	0,0429013
462,0000	0,0457561
461,0000	0,0487528
460,0000	0,0521142
459,0000	0,0560446
458,0000	0,0604656
457,0000	0,0653566
456,0000	0,0707916
455,0000	0,0766665
454,0000	0,082857
453,0000	0,0897991
452,0000	0,0970325
451,0000	0,104833
450,0000	0,11284
449,0000	0,121277
448,0000	0,129996
447,0000	0,138848
446,0000	0,148145
445,0000	0,157439
444,0000	0,166475
443,0000	0,175539
442,0000	0,184379
441,0000	0,193097
440,0000	0,201627
439,0000	0,209615
438,0000	0,217433
437,0000	0,224847
436,0000	0,231975
435,0000	0,238834
434,0000	0,245375
433,0000	0,251846
432,0000	0,257878
431,0000	0,263709
430,0000	0,269423
429,0000	0,275128
428,0000	0,280755
427,0000	0,286134
426,0000	0,291734
425,0000	0,297159
424,0000	0,302486
423,0000	0,307708
422,0000	0,312644
421,0000	0,317324
420,0000	0,321677
419,0000	0,325555
418,0000	0,32893
417,0000	0,331784
416,0000	0,334314
415,0000	0,335886
414,0000	0,336593
413,0000	0,336727
412,0000	0,336312
411,0000	0,335305
410,0000	0,333941
409,0000	0,332155
408,0000	0,329822
407,0000	0,326883
406,0000	0,323578
405,0000	0,320203
404,0000	0,316455
403,0000	0,312782
402,0000	0,308958
401,0000	0,304972
400,0000	0,30076
399,0000	0,296523
398,0000	0,291986
397,0000	0,287562
396,0000	0,282897
395,0000	0,277723
394,0000	0,27237
393,0000	0,26708
392,0000	0,261339
391,0000	0,255242
390,0000	0,248959
389,0000	0,24253
388,0000	0,236086
387,0000	0,229347
386,0000	0,222711
385,0000	0,216016
384,0000	0,208984
383,0000	0,20222
382,0000	0,195366
381,0000	0,188649
380,0000	0,181935
379,0000	0,175492
378,0000	0,169276
377,0000	0,162965
376,0000	0,156778
375,0000	0,15081
374,0000	0,144886
373,0000	0,138885
372,0000	0,133322
371,0000	0,127831
370,0000	0,121521
369,0000	0,116081
368,0000	0,110969
367,0000	0,105811
366,0000	0,100521
365,0000	0,0955158
364,0000	0,0906491
363,0000	0,0859942
362,0000	0,0816181
361,0000	0,0774119
360,0000	0,0732918
359,0000	0,0692628
358,0000	0,0655263
357,0000	0,0619554
356,0000	0,058295
355,0000	0,0549306
354,0000	0,0518086
353,0000	0,0487191
352,0000	0,0456313
351,0000	0,0428919
350,0000	0,0403683
349,0000	0,0378947
348,0000	0,0352336
347,0000	0,0328632
346,0000	0,0307121
345,0000	0,028821
344,0000	0,0269791
343,0000	0,025155
342,0000	0,0235274
341,0000	0,0221291
340,0000	0,0217365
339,0000	0,0204054
338,0000	0,0191383
337,0000	0,0181237
336,0000	0,0173456
335,0000	0,0166845
334,0000	0,0164395
333,0000	0,0166017
332,0000	0,0174282
331,0000	0,0187838
330,0000	0,0203881
329,0000	0,0224139
328,0000	0,0250838
327,0000	0,0277796
326,0000	0,0302193
325,0000	0,0319412
324,0000	0,0331458
323,0000	0,0336417
322,0000	0,0335326
321,0000	0,0331572
320,0000	0,032677
319,0000	0,032465
318,0000	0,0324265
317,0000	0,0317131
316,0000	0,0314567
315,0000	0,0314446
314,0000	0,0312355
313,0000	0,0318177
312,0000	0,0324923
311,0000	0,0335552
310,0000	0,0346195
309,0000	0,035477
308,0000	0,037092
307,0000	0,0387782
306,0000	0,0400703
305,0000	0,042158
304,0000	0,0443828
303,0000	0,0470071
302,0000	0,0494867
301,0000	0,0522646
300,0000	0,0551945
299,0000	0,0579042
298,0000	0,0612573
297,0000	0,0651542
296,0000	0,0701818
295,0000	0,07634
294,0000	0,0833352
293,0000	0,0902535
292,0000	0,0983805
291,0000	0,108934
290,0000	0,123107
289,0000	0,13984
288,0000	0,155875
287,0000	0,168032
286,0000	0,176074
285,0000	0,182341
284,0000	0,187967
283,0000	0,194231
282,0000	0,199706
281,0000	0,203053
280,0000	0,204556
279,0000	0,20525
278,0000	0,205569
277,0000	0,204875
276,0000	0,203635
275,0000	0,201906
274,0000	0,200833
273,0000	0,201787
272,0000	0,204277
271,0000	0,207198
270,0000	0,21079
269,0000	0,212619
268,0000	0,210692
267,0000	0,206886
266,0000	0,201711
265,0000	0,195158
264,0000	0,187166
263,0000	0,18117
262,0000	0,17875
261,0000	0,178667
260,0000	0,178598
259,0000	0,176644
258,0000	0,171932
257,0000	0,165755
256,0000	0,160576
255,0000	0,157116
254,0000	0,154917
253,0000	0,153441
252,0000	0,151677
251,0000	0,150594
250,0000	0,152919

##### Extended Information
[Comments]
Sample name	OD
Comment
User	Virgile
Division
Company	IBS38

[Detailed Information]
Creation date	23/10/2020 18:38

Data array type	Linear data array
Horizontal axis	Wavelength [nm]
Vertical axis	Abs
Start	650 nm
End	250 nm
Data interval	1 nm
Data points	401     

[Measurement Information]
Instrument name	UV/Vis JASCO
Model name	V-650
Serial No.	B117561150

Accessory	USE-753
Accessory S/N	B117561150
  Cell length	10 mm

Measurement date	23/10/2020 18:38

Photometric mode	Abs
Measurement range	650 - 250 nm
Data interval	1 nm
UV/Vis bandwidth	2.0 nm
Response	Fast
Scan speed	400 nm/min
Change source at	340 nm
Light source	D2/WI
Filter exchange	Step
Correction	Baseline

